#FORMAT	     : EMSA/MAS Spectral Data File
#VERSION     : 1.0
#TITLE       : Al(Ga)_Al_L3_Wilfried_Sigle_171
#DATE        : 
#TIME        : 
#OWNER       : eelsdatabase.net
#NPOINTS     : 1340
#NCOLUMNS    : 1
#XUNITS      : eV
#YUNITS      : 
#DATATYPE    : XY
#XPERCHAN    : 0.1
#OFFSET      : 5.520000e+001
#SIGNALTYPE  : ELS
#SPECTRUM    : Spectral Data Starts Here
5.520000e+001, 1.725140e+005
5.530000e+001, 1.718520e+005
5.540000e+001, 1.708570e+005
5.550000e+001, 1.700860e+005
5.560000e+001, 1.688850e+005
5.570000e+001, 1.681930e+005
5.580000e+001, 1.672520e+005
5.590000e+001, 1.656310e+005
5.600000e+001, 1.652430e+005
5.610000e+001, 1.645640e+005
5.620000e+001, 1.634060e+005
5.630000e+001, 1.620010e+005
5.640000e+001, 1.614140e+005
5.650000e+001, 1.603800e+005
5.660000e+001, 1.600150e+005
5.670000e+001, 1.584720e+005
5.680000e+001, 1.578650e+005
5.690000e+001, 1.576660e+005
5.700000e+001, 1.563840e+005
5.710000e+001, 1.558960e+005
5.720000e+001, 1.552010e+005
5.730000e+001, 1.536720e+005
5.740000e+001, 1.527720e+005
5.750000e+001, 1.520340e+005
5.760000e+001, 1.516340e+005
5.770000e+001, 1.507480e+005
5.780000e+001, 1.498110e+005
5.790000e+001, 1.495810e+005
5.800000e+001, 1.487110e+005
5.810000e+001, 1.479900e+005
5.820000e+001, 1.476010e+005
5.830000e+001, 1.465560e+005
5.840000e+001, 1.452170e+005
5.850000e+001, 1.445900e+005
5.860000e+001, 1.433240e+005
5.870000e+001, 1.429730e+005
5.880000e+001, 1.410930e+005
5.890000e+001, 1.387280e+005
5.900000e+001, 1.382930e+005
5.910000e+001, 1.392690e+005
5.920000e+001, 1.401630e+005
5.930000e+001, 1.390960e+005
5.940000e+001, 1.380090e+005
5.950000e+001, 1.378910e+005
5.960000e+001, 1.371150e+005
5.970000e+001, 1.363080e+005
5.980000e+001, 1.363190e+005
5.990000e+001, 1.352410e+005
6.000000e+001, 1.353210e+005
6.010000e+001, 1.344650e+005
6.020000e+001, 1.338760e+005
6.030000e+001, 1.334540e+005
6.040000e+001, 1.323900e+005
6.050000e+001, 1.313490e+005
6.060000e+001, 1.308840e+005
6.070000e+001, 1.296200e+005
6.080000e+001, 1.289510e+005
6.090000e+001, 1.278190e+005
6.100000e+001, 1.252580e+005
6.110000e+001, 1.249150e+005
6.120000e+001, 1.242420e+005
6.130000e+001, 1.231760e+005
6.140000e+001, 1.222840e+005
6.150000e+001, 1.214220e+005
6.160000e+001, 1.205080e+005
6.170000e+001, 1.204260e+005
6.180000e+001, 1.200280e+005
6.190000e+001, 1.196450e+005
6.200000e+001, 1.190540e+005
6.210000e+001, 1.197060e+005
6.220000e+001, 1.190280e+005
6.230000e+001, 1.187100e+005
6.240000e+001, 1.178340e+005
6.250000e+001, 1.172210e+005
6.260000e+001, 1.162150e+005
6.270000e+001, 1.167640e+005
6.280000e+001, 1.162730e+005
6.290000e+001, 1.155220e+005
6.300000e+001, 1.156010e+005
6.310000e+001, 1.150360e+005
6.320000e+001, 1.142460e+005
6.330000e+001, 1.135940e+005
6.340000e+001, 1.129720e+005
6.350000e+001, 1.125100e+005
6.360000e+001, 1.120340e+005
6.370000e+001, 1.115860e+005
6.380000e+001, 1.110580e+005
6.390000e+001, 1.109630e+005
6.400000e+001, 1.102230e+005
6.410000e+001, 1.101770e+005
6.420000e+001, 1.092060e+005
6.430000e+001, 1.088220e+005
6.440000e+001, 1.082720e+005
6.450000e+001, 1.077390e+005
6.460000e+001, 1.072220e+005
6.470000e+001, 1.066580e+005
6.480000e+001, 1.061560e+005
6.490000e+001, 1.058350e+005
6.500000e+001, 1.054940e+005
6.510000e+001, 1.044870e+005
6.520000e+001, 1.039490e+005
6.530000e+001, 1.038010e+005
6.540000e+001, 1.029930e+005
6.550000e+001, 1.025010e+005
6.560000e+001, 1.024450e+005
6.570000e+001, 1.017830e+005
6.580000e+001, 1.006590e+005
6.590000e+001, 1.007400e+005
6.600000e+001, 1.005590e+005
6.610000e+001, 9.967500e+004
6.620000e+001, 9.889600e+004
6.630000e+001, 9.948800e+004
6.640000e+001, 9.861300e+004
6.650000e+001, 9.742100e+004
6.660000e+001, 9.770000e+004
6.670000e+001, 9.709200e+004
6.680000e+001, 9.705900e+004
6.690000e+001, 9.637300e+004
6.700000e+001, 9.613600e+004
6.710000e+001, 9.540500e+004
6.720000e+001, 9.505500e+004
6.730000e+001, 9.473300e+004
6.740000e+001, 9.438600e+004
6.750000e+001, 9.317000e+004
6.760000e+001, 9.334600e+004
6.770000e+001, 9.236700e+004
6.780000e+001, 9.168600e+004
6.790000e+001, 9.141100e+004
6.800000e+001, 9.107600e+004
6.810000e+001, 9.097100e+004
6.820000e+001, 9.070500e+004
6.830000e+001, 9.015000e+004
6.840000e+001, 8.971000e+004
6.850000e+001, 8.916900e+004
6.860000e+001, 8.875500e+004
6.870000e+001, 8.829800e+004
6.880000e+001, 8.793000e+004
6.890000e+001, 8.737800e+004
6.900000e+001, 8.713500e+004
6.910000e+001, 8.643600e+004
6.920000e+001, 8.627100e+004
6.930000e+001, 8.638000e+004
6.940000e+001, 8.579700e+004
6.950000e+001, 8.523700e+004
6.960000e+001, 8.533900e+004
6.970000e+001, 8.509600e+004
6.980000e+001, 8.445000e+004
6.990000e+001, 8.394200e+004
7.000000e+001, 8.353900e+004
7.010000e+001, 8.330300e+004
7.020000e+001, 8.345400e+004
7.030000e+001, 8.324500e+004
7.040000e+001, 8.270300e+004
7.050000e+001, 8.208900e+004
7.060000e+001, 8.116500e+004
7.070000e+001, 8.085200e+004
7.080000e+001, 8.043400e+004
7.090000e+001, 7.967900e+004
7.100000e+001, 7.958400e+004
7.110000e+001, 7.907700e+004
7.120000e+001, 7.873100e+004
7.130000e+001, 7.867500e+004
7.140000e+001, 7.787200e+004
7.150000e+001, 7.765300e+004
7.160000e+001, 7.747400e+004
7.170000e+001, 7.708800e+004
7.180000e+001, 7.728400e+004
7.190000e+001, 7.650900e+004
7.200000e+001, 7.564500e+004
7.210000e+001, 7.641800e+004
7.220000e+001, 7.592200e+004
7.230000e+001, 7.617600e+004
7.240000e+001, 7.572700e+004
7.250000e+001, 7.581400e+004
7.260000e+001, 7.680400e+004
7.270000e+001, 7.779900e+004
7.280000e+001, 8.031900e+004
7.290000e+001, 8.304900e+004
7.300000e+001, 8.502100e+004
7.310000e+001, 8.682600e+004
7.320000e+001, 8.947500e+004
7.330000e+001, 9.111700e+004
7.340000e+001, 9.226900e+004
7.350000e+001, 9.330700e+004
7.360000e+001, 9.397200e+004
7.370000e+001, 9.459800e+004
7.380000e+001, 9.495700e+004
7.390000e+001, 9.466900e+004
7.400000e+001, 9.435600e+004
7.410000e+001, 9.421800e+004
7.420000e+001, 9.405100e+004
7.430000e+001, 9.352000e+004
7.440000e+001, 9.337600e+004
7.450000e+001, 9.353500e+004
7.460000e+001, 9.350900e+004
7.470000e+001, 9.372500e+004
7.480000e+001, 9.319700e+004
7.490000e+001, 9.295100e+004
7.500000e+001, 9.295000e+004
7.510000e+001, 9.315500e+004
7.520000e+001, 9.273200e+004
7.530000e+001, 9.230500e+004
7.540000e+001, 9.234400e+004
7.550000e+001, 9.205300e+004
7.560000e+001, 9.208900e+004
7.570000e+001, 9.229300e+004
7.580000e+001, 9.153200e+004
7.590000e+001, 9.149900e+004
7.600000e+001, 9.199700e+004
7.610000e+001, 9.229800e+004
7.620000e+001, 9.182300e+004
7.630000e+001, 9.187600e+004
7.640000e+001, 9.289400e+004
7.650000e+001, 9.295000e+004
7.660000e+001, 9.268200e+004
7.670000e+001, 9.310800e+004
7.680000e+001, 9.352300e+004
7.690000e+001, 9.363900e+004
7.700000e+001, 9.366100e+004
7.710000e+001, 9.459500e+004
7.720000e+001, 9.453900e+004
7.730000e+001, 9.544500e+004
7.740000e+001, 9.517700e+004
7.750000e+001, 9.484800e+004
7.760000e+001, 9.536800e+004
7.770000e+001, 9.528000e+004
7.780000e+001, 9.500600e+004
7.790000e+001, 9.548300e+004
7.800000e+001, 9.569600e+004
7.810000e+001, 9.513300e+004
7.820000e+001, 9.504300e+004
7.830000e+001, 9.534000e+004
7.840000e+001, 9.558500e+004
7.850000e+001, 9.524900e+004
7.860000e+001, 9.563500e+004
7.870000e+001, 9.589100e+004
7.880000e+001, 9.683300e+004
7.890000e+001, 9.692100e+004
7.900000e+001, 9.682800e+004
7.910000e+001, 9.644100e+004
7.920000e+001, 9.679900e+004
7.930000e+001, 9.698900e+004
7.940000e+001, 9.751100e+004
7.950000e+001, 9.759000e+004
7.960000e+001, 9.851400e+004
7.970000e+001, 9.837900e+004
7.980000e+001, 9.833800e+004
7.990000e+001, 9.918400e+004
8.000000e+001, 9.980100e+004
8.010000e+001, 9.966500e+004
8.020000e+001, 9.882600e+004
8.030000e+001, 9.883600e+004
8.040000e+001, 9.907000e+004
8.050000e+001, 9.902400e+004
8.060000e+001, 9.894500e+004
8.070000e+001, 9.865700e+004
8.080000e+001, 9.760300e+004
8.090000e+001, 9.766900e+004
8.100000e+001, 9.783500e+004
8.110000e+001, 9.756800e+004
8.120000e+001, 9.792600e+004
8.130000e+001, 9.747000e+004
8.140000e+001, 9.752500e+004
8.150000e+001, 9.715200e+004
8.160000e+001, 9.748300e+004
8.170000e+001, 9.691100e+004
8.180000e+001, 9.668000e+004
8.190000e+001, 9.739400e+004
8.200000e+001, 9.656600e+004
8.210000e+001, 9.667100e+004
8.220000e+001, 9.660900e+004
8.230000e+001, 9.710400e+004
8.240000e+001, 9.686200e+004
8.250000e+001, 9.665200e+004
8.260000e+001, 9.720700e+004
8.270000e+001, 9.731200e+004
8.280000e+001, 9.712400e+004
8.290000e+001, 9.690600e+004
8.300000e+001, 9.702100e+004
8.310000e+001, 9.749400e+004
8.320000e+001, 9.749500e+004
8.330000e+001, 9.759600e+004
8.340000e+001, 9.776200e+004
8.350000e+001, 9.848900e+004
8.360000e+001, 9.852700e+004
8.370000e+001, 9.805300e+004
8.380000e+001, 9.794900e+004
8.390000e+001, 9.784000e+004
8.400000e+001, 9.753000e+004
8.410000e+001, 9.820600e+004
8.420000e+001, 9.796100e+004
8.430000e+001, 9.809500e+004
8.440000e+001, 9.785300e+004
8.450000e+001, 9.733300e+004
8.460000e+001, 9.778300e+004
8.470000e+001, 9.781800e+004
8.480000e+001, 9.804100e+004
8.490000e+001, 9.847600e+004
8.500000e+001, 9.782300e+004
8.510000e+001, 9.790500e+004
8.520000e+001, 9.822500e+004
8.530000e+001, 9.809200e+004
8.540000e+001, 9.798700e+004
8.550000e+001, 9.771800e+004
8.560000e+001, 9.772500e+004
8.570000e+001, 9.752400e+004
8.580000e+001, 9.768300e+004
8.590000e+001, 9.752800e+004
8.600000e+001, 9.690100e+004
8.610000e+001, 9.686900e+004
8.620000e+001, 9.678200e+004
8.630000e+001, 9.670700e+004
8.640000e+001, 9.693100e+004
8.650000e+001, 9.636700e+004
8.660000e+001, 9.606700e+004
8.670000e+001, 9.633600e+004
8.680000e+001, 9.603100e+004
8.690000e+001, 9.609100e+004
8.700000e+001, 9.704200e+004
8.710000e+001, 9.680100e+004
8.720000e+001, 9.650400e+004
8.730000e+001, 9.612700e+004
8.740000e+001, 9.647000e+004
8.750000e+001, 9.651800e+004
8.760000e+001, 9.666200e+004
8.770000e+001, 9.638000e+004
8.780000e+001, 9.674700e+004
8.790000e+001, 9.671500e+004
8.800000e+001, 9.647200e+004
8.810000e+001, 9.658600e+004
8.820000e+001, 9.650100e+004
8.830000e+001, 9.689500e+004
8.840000e+001, 9.717400e+004
8.850000e+001, 9.754600e+004
8.860000e+001, 9.746200e+004
8.870000e+001, 9.721300e+004
8.880000e+001, 9.785900e+004
8.890000e+001, 9.749100e+004
8.900000e+001, 9.750800e+004
8.910000e+001, 9.791000e+004
8.920000e+001, 9.734500e+004
8.930000e+001, 9.733100e+004
8.940000e+001, 9.739200e+004
8.950000e+001, 9.771800e+004
8.960000e+001, 9.714300e+004
8.970000e+001, 9.723300e+004
8.980000e+001, 9.774300e+004
8.990000e+001, 9.749900e+004
9.000000e+001, 9.679600e+004
9.010000e+001, 9.756700e+004
9.020000e+001, 9.815900e+004
9.030000e+001, 9.823400e+004
9.040000e+001, 9.796000e+004
9.050000e+001, 9.785000e+004
9.060000e+001, 9.858200e+004
9.070000e+001, 9.873800e+004
9.080000e+001, 9.885200e+004
9.090000e+001, 9.948200e+004
9.100000e+001, 9.906500e+004
9.110000e+001, 9.897200e+004
9.120000e+001, 9.927900e+004
9.130000e+001, 9.967800e+004
9.140000e+001, 1.002520e+005
9.150000e+001, 1.008450e+005
9.160000e+001, 1.004000e+005
9.170000e+001, 1.008970e+005
9.180000e+001, 1.007690e+005
9.190000e+001, 1.009820e+005
9.200000e+001, 1.019040e+005
9.210000e+001, 1.018300e+005
9.220000e+001, 1.022840e+005
9.230000e+001, 1.029030e+005
9.240000e+001, 1.026210e+005
9.250000e+001, 1.031200e+005
9.260000e+001, 1.036960e+005
9.270000e+001, 1.043590e+005
9.280000e+001, 1.039850e+005
9.290000e+001, 1.043070e+005
9.300000e+001, 1.050490e+005
9.310000e+001, 1.056640e+005
9.320000e+001, 1.058020e+005
9.330000e+001, 1.058960e+005
9.340000e+001, 1.069310e+005
9.350000e+001, 1.066420e+005
9.360000e+001, 1.070800e+005
9.370000e+001, 1.068540e+005
9.380000e+001, 1.074520e+005
9.390000e+001, 1.079210e+005
9.400000e+001, 1.081620e+005
9.410000e+001, 1.083110e+005
9.420000e+001, 1.090370e+005
9.430000e+001, 1.098050e+005
9.440000e+001, 1.097700e+005
9.450000e+001, 1.095770e+005
9.460000e+001, 1.105050e+005
9.470000e+001, 1.109940e+005
9.480000e+001, 1.110520e+005
9.490000e+001, 1.117590e+005
9.500000e+001, 1.120210e+005
9.510000e+001, 1.123800e+005
9.520000e+001, 1.128030e+005
9.530000e+001, 1.137650e+005
9.540000e+001, 1.141400e+005
9.550000e+001, 1.144490e+005
9.560000e+001, 1.147600e+005
9.570000e+001, 1.149000e+005
9.580000e+001, 1.151150e+005
9.590000e+001, 1.161470e+005
9.600000e+001, 1.154830e+005
9.610000e+001, 1.154710e+005
9.620000e+001, 1.159210e+005
9.630000e+001, 1.155200e+005
9.640000e+001, 1.167780e+005
9.650000e+001, 1.158460e+005
9.660000e+001, 1.158840e+005
9.670000e+001, 1.163250e+005
9.680000e+001, 1.162300e+005
9.690000e+001, 1.167810e+005
9.700000e+001, 1.168430e+005
9.710000e+001, 1.171940e+005
9.720000e+001, 1.165640e+005
9.730000e+001, 1.165170e+005
9.740000e+001, 1.165340e+005
9.750000e+001, 1.166460e+005
9.760000e+001, 1.163320e+005
9.770000e+001, 1.157930e+005
9.780000e+001, 1.163430e+005
9.790000e+001, 1.157140e+005
9.800000e+001, 1.158080e+005
9.810000e+001, 1.157410e+005
9.820000e+001, 1.157910e+005
9.830000e+001, 1.155420e+005
9.840000e+001, 1.148800e+005
9.850000e+001, 1.147610e+005
9.860000e+001, 1.149670e+005
9.870000e+001, 1.149650e+005
9.880000e+001, 1.143220e+005
9.890000e+001, 1.137190e+005
9.900000e+001, 1.130520e+005
9.910000e+001, 1.125370e+005
9.920000e+001, 1.119930e+005
9.930000e+001, 1.119530e+005
9.940000e+001, 1.110150e+005
9.950000e+001, 1.108190e+005
9.960000e+001, 1.106720e+005
9.970000e+001, 1.100110e+005
9.980000e+001, 1.093500e+005
9.990000e+001, 1.091550e+005
1.000000e+002, 1.090480e+005
1.001000e+002, 1.079850e+005
1.002000e+002, 1.066410e+005
1.003000e+002, 1.062730e+005
1.004000e+002, 1.053950e+005
1.005000e+002, 1.054000e+005
1.006000e+002, 1.040290e+005
1.007000e+002, 1.043530e+005
1.008000e+002, 1.036550e+005
1.009000e+002, 1.028670e+005
1.010000e+002, 1.024040e+005
1.011000e+002, 1.016330e+005
1.012000e+002, 1.014400e+005
1.013000e+002, 1.001800e+005
1.014000e+002, 9.950200e+004
1.015000e+002, 9.940200e+004
1.016000e+002, 9.872300e+004
1.017000e+002, 9.820200e+004
1.018000e+002, 9.786800e+004
1.019000e+002, 9.723100e+004
1.020000e+002, 9.690200e+004
1.021000e+002, 9.550300e+004
1.022000e+002, 9.558200e+004
1.023000e+002, 9.446300e+004
1.024000e+002, 9.412400e+004
1.025000e+002, 9.410200e+004
1.026000e+002, 9.383600e+004
1.027000e+002, 9.351900e+004
1.028000e+002, 9.275600e+004
1.029000e+002, 9.249100e+004
1.030000e+002, 9.308900e+004
1.031000e+002, 9.242300e+004
1.032000e+002, 9.203100e+004
1.033000e+002, 9.158300e+004
1.034000e+002, 9.136900e+004
1.035000e+002, 9.107800e+004
1.036000e+002, 9.071600e+004
1.037000e+002, 9.025100e+004
1.038000e+002, 9.027000e+004
1.039000e+002, 9.013300e+004
1.040000e+002, 8.987700e+004
1.041000e+002, 8.989200e+004
1.042000e+002, 8.908000e+004
1.043000e+002, 9.002300e+004
1.044000e+002, 8.956400e+004
1.045000e+002, 8.929900e+004
1.046000e+002, 8.901000e+004
1.047000e+002, 8.878100e+004
1.048000e+002, 8.876300e+004
1.049000e+002, 8.895000e+004
1.050000e+002, 8.844200e+004
1.051000e+002, 8.873200e+004
1.052000e+002, 8.862900e+004
1.053000e+002, 8.873400e+004
1.054000e+002, 8.818300e+004
1.055000e+002, 8.800000e+004
1.056000e+002, 8.859100e+004
1.057000e+002, 8.825600e+004
1.058000e+002, 8.822000e+004
1.059000e+002, 8.866200e+004
1.060000e+002, 8.801800e+004
1.061000e+002, 8.781800e+004
1.062000e+002, 8.821500e+004
1.063000e+002, 8.739400e+004
1.064000e+002, 8.762500e+004
1.065000e+002, 8.794300e+004
1.066000e+002, 8.775800e+004
1.067000e+002, 8.798300e+004
1.068000e+002, 8.749200e+004
1.069000e+002, 8.779300e+004
1.070000e+002, 8.741100e+004
1.071000e+002, 8.735100e+004
1.072000e+002, 8.754000e+004
1.073000e+002, 8.773500e+004
1.074000e+002, 8.773200e+004
1.075000e+002, 8.727100e+004
1.076000e+002, 8.783400e+004
1.077000e+002, 8.823500e+004
1.078000e+002, 8.781200e+004
1.079000e+002, 8.751400e+004
1.080000e+002, 8.769600e+004
1.081000e+002, 8.727000e+004
1.082000e+002, 8.822300e+004
1.083000e+002, 8.805300e+004
1.084000e+002, 8.822800e+004
1.085000e+002, 8.812800e+004
1.086000e+002, 8.884400e+004
1.087000e+002, 8.869800e+004
1.088000e+002, 8.871700e+004
1.089000e+002, 8.878000e+004
1.090000e+002, 8.829300e+004
1.091000e+002, 8.849100e+004
1.092000e+002, 8.886200e+004
1.093000e+002, 8.872300e+004
1.094000e+002, 8.871900e+004
1.095000e+002, 8.875700e+004
1.096000e+002, 8.861300e+004
1.097000e+002, 8.882200e+004
1.098000e+002, 8.836900e+004
1.099000e+002, 8.815400e+004
1.100000e+002, 8.868600e+004
1.101000e+002, 8.880400e+004
1.102000e+002, 8.915200e+004
1.103000e+002, 8.858200e+004
1.104000e+002, 8.821400e+004
1.105000e+002, 8.812700e+004
1.106000e+002, 8.855600e+004
1.107000e+002, 8.912300e+004
1.108000e+002, 8.911900e+004
1.109000e+002, 8.873400e+004
1.110000e+002, 8.880500e+004
1.111000e+002, 8.847200e+004
1.112000e+002, 8.869200e+004
1.113000e+002, 8.901500e+004
1.114000e+002, 8.827800e+004
1.115000e+002, 8.831900e+004
1.116000e+002, 8.869000e+004
1.117000e+002, 8.859400e+004
1.118000e+002, 8.810100e+004
1.119000e+002, 8.777500e+004
1.120000e+002, 8.809100e+004
1.121000e+002, 8.842100e+004
1.122000e+002, 8.830700e+004
1.123000e+002, 8.804100e+004
1.124000e+002, 8.807100e+004
1.125000e+002, 8.785700e+004
1.126000e+002, 8.791100e+004
1.127000e+002, 8.800300e+004
1.128000e+002, 8.799900e+004
1.129000e+002, 8.787900e+004
1.130000e+002, 8.724500e+004
1.131000e+002, 8.765600e+004
1.132000e+002, 8.755600e+004
1.133000e+002, 8.737900e+004
1.134000e+002, 8.740400e+004
1.135000e+002, 8.690400e+004
1.136000e+002, 8.746200e+004
1.137000e+002, 8.746300e+004
1.138000e+002, 8.728900e+004
1.139000e+002, 8.719300e+004
1.140000e+002, 8.730800e+004
1.141000e+002, 8.680300e+004
1.142000e+002, 8.649100e+004
1.143000e+002, 8.680000e+004
1.144000e+002, 8.668000e+004
1.145000e+002, 8.691700e+004
1.146000e+002, 8.631100e+004
1.147000e+002, 8.682900e+004
1.148000e+002, 8.646500e+004
1.149000e+002, 8.618200e+004
1.150000e+002, 8.599400e+004
1.151000e+002, 8.612500e+004
1.152000e+002, 8.597100e+004
1.153000e+002, 8.570000e+004
1.154000e+002, 8.610800e+004
1.155000e+002, 8.550600e+004
1.156000e+002, 8.538300e+004
1.157000e+002, 8.544400e+004
1.158000e+002, 8.512500e+004
1.159000e+002, 8.538400e+004
1.160000e+002, 8.522300e+004
1.161000e+002, 8.471700e+004
1.162000e+002, 8.535400e+004
1.163000e+002, 8.481300e+004
1.164000e+002, 8.498700e+004
1.165000e+002, 8.453200e+004
1.166000e+002, 8.453000e+004
1.167000e+002, 8.441000e+004
1.168000e+002, 8.448800e+004
1.169000e+002, 8.407000e+004
1.170000e+002, 8.360700e+004
1.171000e+002, 8.345200e+004
1.172000e+002, 8.353800e+004
1.173000e+002, 8.335500e+004
1.174000e+002, 8.373500e+004
1.175000e+002, 8.338100e+004
1.176000e+002, 8.334500e+004
1.177000e+002, 8.367900e+004
1.178000e+002, 8.310400e+004
1.179000e+002, 8.355300e+004
1.180000e+002, 8.325000e+004
1.181000e+002, 8.286700e+004
1.182000e+002, 8.269600e+004
1.183000e+002, 8.325100e+004
1.184000e+002, 8.347900e+004
1.185000e+002, 8.329700e+004
1.186000e+002, 8.347800e+004
1.187000e+002, 8.316500e+004
1.188000e+002, 8.296300e+004
1.189000e+002, 8.298200e+004
1.190000e+002, 8.279600e+004
1.191000e+002, 8.261500e+004
1.192000e+002, 8.261200e+004
1.193000e+002, 8.293900e+004
1.194000e+002, 8.261100e+004
1.195000e+002, 8.244000e+004
1.196000e+002, 8.211700e+004
1.197000e+002, 8.158700e+004
1.198000e+002, 8.181300e+004
1.199000e+002, 8.182300e+004
1.200000e+002, 8.148900e+004
1.201000e+002, 8.117100e+004
1.202000e+002, 8.106500e+004
1.203000e+002, 8.106500e+004
1.204000e+002, 8.150200e+004
1.205000e+002, 8.124000e+004
1.206000e+002, 8.115400e+004
1.207000e+002, 8.087700e+004
1.208000e+002, 8.087100e+004
1.209000e+002, 8.114400e+004
1.210000e+002, 8.106100e+004
1.211000e+002, 8.051700e+004
1.212000e+002, 8.088400e+004
1.213000e+002, 8.057600e+004
1.214000e+002, 8.108300e+004
1.215000e+002, 8.031900e+004
1.216000e+002, 8.088000e+004
1.217000e+002, 8.075300e+004
1.218000e+002, 8.088600e+004
1.219000e+002, 8.107400e+004
1.220000e+002, 8.060400e+004
1.221000e+002, 8.120400e+004
1.222000e+002, 8.092000e+004
1.223000e+002, 8.078200e+004
1.224000e+002, 8.109000e+004
1.225000e+002, 8.110600e+004
1.226000e+002, 8.084400e+004
1.227000e+002, 8.099700e+004
1.228000e+002, 8.092100e+004
1.229000e+002, 8.070500e+004
1.230000e+002, 8.084300e+004
1.231000e+002, 8.093700e+004
1.232000e+002, 8.005800e+004
1.233000e+002, 8.033100e+004
1.234000e+002, 8.041400e+004
1.235000e+002, 8.107400e+004
1.236000e+002, 8.040900e+004
1.237000e+002, 8.019200e+004
1.238000e+002, 8.028100e+004
1.239000e+002, 8.017200e+004
1.240000e+002, 8.026200e+004
1.241000e+002, 8.018900e+004
1.242000e+002, 8.047300e+004
1.243000e+002, 8.030000e+004
1.244000e+002, 8.021000e+004
1.245000e+002, 7.965000e+004
1.246000e+002, 8.005900e+004
1.247000e+002, 7.976900e+004
1.248000e+002, 7.988300e+004
1.249000e+002, 7.956400e+004
1.250000e+002, 7.947300e+004
1.251000e+002, 7.931800e+004
1.252000e+002, 7.970700e+004
1.253000e+002, 7.923800e+004
1.254000e+002, 7.901100e+004
1.255000e+002, 7.914200e+004
1.256000e+002, 7.840600e+004
1.257000e+002, 7.872400e+004
1.258000e+002, 7.897700e+004
1.259000e+002, 7.866500e+004
1.260000e+002, 7.849500e+004
1.261000e+002, 7.861200e+004
1.262000e+002, 7.854800e+004
1.263000e+002, 7.795000e+004
1.264000e+002, 7.773800e+004
1.265000e+002, 7.739400e+004
1.266000e+002, 7.803200e+004
1.267000e+002, 7.770100e+004
1.268000e+002, 7.741600e+004
1.269000e+002, 7.751500e+004
1.270000e+002, 7.743800e+004
1.271000e+002, 7.683800e+004
1.272000e+002, 7.705600e+004
1.273000e+002, 7.665500e+004
1.274000e+002, 7.651600e+004
1.275000e+002, 7.691100e+004
1.276000e+002, 7.691600e+004
1.277000e+002, 7.658500e+004
1.278000e+002, 7.600000e+004
1.279000e+002, 7.602500e+004
1.280000e+002, 7.618200e+004
1.281000e+002, 7.581200e+004
1.282000e+002, 7.584400e+004
1.283000e+002, 7.554100e+004
1.284000e+002, 7.549000e+004
1.285000e+002, 7.516300e+004
1.286000e+002, 7.519700e+004
1.287000e+002, 7.503700e+004
1.288000e+002, 7.462000e+004
1.289000e+002, 7.449700e+004
1.290000e+002, 7.397700e+004
1.291000e+002, 7.436500e+004
1.292000e+002, 7.406200e+004
1.293000e+002, 7.381700e+004
1.294000e+002, 7.405900e+004
1.295000e+002, 7.367000e+004
1.296000e+002, 7.346900e+004
1.297000e+002, 7.314500e+004
1.298000e+002, 7.344100e+004
1.299000e+002, 7.284700e+004
1.300000e+002, 7.239000e+004
1.301000e+002, 7.244500e+004
1.302000e+002, 7.201000e+004
1.303000e+002, 7.160800e+004
1.304000e+002, 7.174700e+004
1.305000e+002, 7.133200e+004
1.306000e+002, 7.108600e+004
1.307000e+002, 7.076000e+004
1.308000e+002, 7.046600e+004
1.309000e+002, 7.054400e+004
1.310000e+002, 7.041100e+004
1.311000e+002, 7.007200e+004
1.312000e+002, 6.975600e+004
1.313000e+002, 6.959000e+004
1.314000e+002, 6.902600e+004
1.315000e+002, 6.924200e+004
1.316000e+002, 6.848600e+004
1.317000e+002, 6.817200e+004
1.318000e+002, 6.814600e+004
1.319000e+002, 6.804300e+004
1.320000e+002, 6.782000e+004
1.321000e+002, 6.759300e+004
1.322000e+002, 6.736800e+004
1.323000e+002, 6.759100e+004
1.324000e+002, 6.735600e+004
1.325000e+002, 6.691600e+004
1.326000e+002, 6.674700e+004
1.327000e+002, 6.657200e+004
1.328000e+002, 6.649500e+004
1.329000e+002, 6.622600e+004
1.330000e+002, 6.580000e+004
1.331000e+002, 6.553000e+004
1.332000e+002, 6.543200e+004
1.333000e+002, 6.521900e+004
1.334000e+002, 6.586100e+004
1.335000e+002, 6.559200e+004
1.336000e+002, 6.494400e+004
1.337000e+002, 6.444100e+004
1.338000e+002, 6.434600e+004
1.339000e+002, 6.486700e+004
1.340000e+002, 6.485400e+004
1.341000e+002, 6.448100e+004
1.342000e+002, 6.432200e+004
1.343000e+002, 6.373700e+004
1.344000e+002, 6.361500e+004
1.345000e+002, 6.358700e+004
1.346000e+002, 6.324800e+004
1.347000e+002, 6.330400e+004
1.348000e+002, 6.319400e+004
1.349000e+002, 6.331900e+004
1.350000e+002, 6.255800e+004
1.351000e+002, 6.262100e+004
1.352000e+002, 6.232700e+004
1.353000e+002, 6.271500e+004
1.354000e+002, 6.247000e+004
1.355000e+002, 6.249000e+004
1.356000e+002, 6.250700e+004
1.357000e+002, 6.238600e+004
1.358000e+002, 6.203600e+004
1.359000e+002, 6.184900e+004
1.360000e+002, 6.169200e+004
1.361000e+002, 6.171900e+004
1.362000e+002, 6.152100e+004
1.363000e+002, 6.162600e+004
1.364000e+002, 6.141000e+004
1.365000e+002, 6.159400e+004
1.366000e+002, 6.143700e+004
1.367000e+002, 6.155200e+004
1.368000e+002, 6.116900e+004
1.369000e+002, 6.106800e+004
1.370000e+002, 6.081600e+004
1.371000e+002, 6.081700e+004
1.372000e+002, 6.073300e+004
1.373000e+002, 6.094700e+004
1.374000e+002, 6.055700e+004
1.375000e+002, 6.082100e+004
1.376000e+002, 6.050900e+004
1.377000e+002, 6.004500e+004
1.378000e+002, 6.049500e+004
1.379000e+002, 6.030500e+004
1.380000e+002, 6.026100e+004
1.381000e+002, 5.947900e+004
1.382000e+002, 5.987500e+004
1.383000e+002, 5.990600e+004
1.384000e+002, 6.020300e+004
1.385000e+002, 6.015400e+004
1.386000e+002, 5.995400e+004
1.387000e+002, 5.962500e+004
1.388000e+002, 5.935600e+004
1.389000e+002, 5.926400e+004
1.390000e+002, 5.937700e+004
1.391000e+002, 5.961100e+004
1.392000e+002, 5.985000e+004
1.393000e+002, 5.924100e+004
1.394000e+002, 5.901300e+004
1.395000e+002, 5.885700e+004
1.396000e+002, 5.897900e+004
1.397000e+002, 5.868900e+004
1.398000e+002, 5.881500e+004
1.399000e+002, 5.878700e+004
1.400000e+002, 5.857100e+004
1.401000e+002, 5.879500e+004
1.402000e+002, 5.857900e+004
1.403000e+002, 5.836000e+004
1.404000e+002, 5.823000e+004
1.405000e+002, 5.799600e+004
1.406000e+002, 5.835100e+004
1.407000e+002, 5.798000e+004
1.408000e+002, 5.782100e+004
1.409000e+002, 5.753300e+004
1.410000e+002, 5.773800e+004
1.411000e+002, 5.762700e+004
1.412000e+002, 5.745600e+004
1.413000e+002, 5.779900e+004
1.414000e+002, 5.763100e+004
1.415000e+002, 5.727800e+004
1.416000e+002, 5.755800e+004
1.417000e+002, 5.727200e+004
1.418000e+002, 5.715600e+004
1.419000e+002, 5.690600e+004
1.420000e+002, 5.683600e+004
1.421000e+002, 5.667200e+004
1.422000e+002, 5.700200e+004
1.423000e+002, 5.677000e+004
1.424000e+002, 5.677200e+004
1.425000e+002, 5.675900e+004
1.426000e+002, 5.627400e+004
1.427000e+002, 5.654300e+004
1.428000e+002, 5.638600e+004
1.429000e+002, 5.656200e+004
1.430000e+002, 5.598600e+004
1.431000e+002, 5.635900e+004
1.432000e+002, 5.616800e+004
1.433000e+002, 5.613400e+004
1.434000e+002, 5.601700e+004
1.435000e+002, 5.588600e+004
1.436000e+002, 5.595400e+004
1.437000e+002, 5.572500e+004
1.438000e+002, 5.492400e+004
1.439000e+002, 5.537200e+004
1.440000e+002, 5.544100e+004
1.441000e+002, 5.522100e+004
1.442000e+002, 5.541800e+004
1.443000e+002, 5.538800e+004
1.444000e+002, 5.522500e+004
1.445000e+002, 5.484600e+004
1.446000e+002, 5.480700e+004
1.447000e+002, 5.488200e+004
1.448000e+002, 5.452400e+004
1.449000e+002, 5.472000e+004
1.450000e+002, 5.468400e+004
1.451000e+002, 5.432800e+004
1.452000e+002, 5.393700e+004
1.453000e+002, 5.395300e+004
1.454000e+002, 5.421000e+004
1.455000e+002, 5.424200e+004
1.456000e+002, 5.361600e+004
1.457000e+002, 5.371300e+004
1.458000e+002, 5.366500e+004
1.459000e+002, 5.341900e+004
1.460000e+002, 5.332000e+004
1.461000e+002, 5.310100e+004
1.462000e+002, 5.286500e+004
1.463000e+002, 5.301700e+004
1.464000e+002, 5.317200e+004
1.465000e+002, 5.262400e+004
1.466000e+002, 5.291300e+004
1.467000e+002, 5.284600e+004
1.468000e+002, 5.223200e+004
1.469000e+002, 5.233900e+004
1.470000e+002, 5.197600e+004
1.471000e+002, 5.196500e+004
1.472000e+002, 5.200100e+004
1.473000e+002, 5.181000e+004
1.474000e+002, 5.212400e+004
1.475000e+002, 5.179100e+004
1.476000e+002, 5.161000e+004
1.477000e+002, 5.167800e+004
1.478000e+002, 5.155700e+004
1.479000e+002, 5.147500e+004
1.480000e+002, 5.124600e+004
1.481000e+002, 5.143600e+004
1.482000e+002, 5.141500e+004
1.483000e+002, 5.104800e+004
1.484000e+002, 5.116000e+004
1.485000e+002, 5.132800e+004
1.486000e+002, 5.097400e+004
1.487000e+002, 5.107800e+004
1.488000e+002, 5.082300e+004
1.489000e+002, 5.077600e+004
1.490000e+002, 5.074000e+004
1.491000e+002, 5.043900e+004
1.492000e+002, 5.061400e+004
1.493000e+002, 5.053100e+004
1.494000e+002, 5.024500e+004
1.495000e+002, 5.021100e+004
1.496000e+002, 5.051300e+004
1.497000e+002, 5.034300e+004
1.498000e+002, 4.996000e+004
1.499000e+002, 5.006100e+004
1.500000e+002, 5.011600e+004
1.501000e+002, 4.977600e+004
1.502000e+002, 4.975300e+004
1.503000e+002, 4.998400e+004
1.504000e+002, 4.990100e+004
1.505000e+002, 4.972600e+004
1.506000e+002, 4.982800e+004
1.507000e+002, 4.977200e+004
1.508000e+002, 4.968800e+004
1.509000e+002, 4.987400e+004
1.510000e+002, 4.955800e+004
1.511000e+002, 4.929500e+004
1.512000e+002, 4.933100e+004
1.513000e+002, 4.970000e+004
1.514000e+002, 4.924900e+004
1.515000e+002, 4.931600e+004
1.516000e+002, 4.930000e+004
1.517000e+002, 4.962000e+004
1.518000e+002, 4.917700e+004
1.519000e+002, 4.927700e+004
1.520000e+002, 4.952800e+004
1.521000e+002, 4.918300e+004
1.522000e+002, 4.917300e+004
1.523000e+002, 4.923800e+004
1.524000e+002, 4.937700e+004
1.525000e+002, 4.928500e+004
1.526000e+002, 4.892300e+004
1.527000e+002, 4.910700e+004
1.528000e+002, 4.924500e+004
1.529000e+002, 4.876000e+004
1.530000e+002, 4.887900e+004
1.531000e+002, 4.912400e+004
1.532000e+002, 4.907100e+004
1.533000e+002, 4.909200e+004
1.534000e+002, 4.885000e+004
1.535000e+002, 4.868000e+004
1.536000e+002, 4.904800e+004
1.537000e+002, 4.871100e+004
1.538000e+002, 4.830000e+004
1.539000e+002, 4.879700e+004
1.540000e+002, 4.868800e+004
1.541000e+002, 4.869700e+004
1.542000e+002, 4.845300e+004
1.543000e+002, 4.858800e+004
1.544000e+002, 4.883800e+004
1.545000e+002, 4.868500e+004
1.546000e+002, 4.820300e+004
1.547000e+002, 4.864600e+004
1.548000e+002, 4.832800e+004
1.549000e+002, 4.839400e+004
1.550000e+002, 4.829300e+004
1.551000e+002, 4.831000e+004
1.552000e+002, 4.776800e+004
1.553000e+002, 4.791900e+004
1.554000e+002, 4.780200e+004
1.555000e+002, 4.788300e+004
1.556000e+002, 4.790900e+004
1.557000e+002, 4.769100e+004
1.558000e+002, 4.766000e+004
1.559000e+002, 4.773900e+004
1.560000e+002, 4.761900e+004
1.561000e+002, 4.770400e+004
1.562000e+002, 4.777800e+004
1.563000e+002, 4.731100e+004
1.564000e+002, 4.717900e+004
1.565000e+002, 4.732900e+004
1.566000e+002, 4.717700e+004
1.567000e+002, 4.707100e+004
1.568000e+002, 4.706900e+004
1.569000e+002, 4.733100e+004
1.570000e+002, 4.706600e+004
1.571000e+002, 4.724100e+004
1.572000e+002, 4.706100e+004
1.573000e+002, 4.688700e+004
1.574000e+002, 4.675900e+004
1.575000e+002, 4.691600e+004
1.576000e+002, 4.672100e+004
1.577000e+002, 4.685100e+004
1.578000e+002, 4.646300e+004
1.579000e+002, 4.628200e+004
1.580000e+002, 4.635700e+004
1.581000e+002, 4.663200e+004
1.582000e+002, 4.650000e+004
1.583000e+002, 4.646100e+004
1.584000e+002, 4.616500e+004
1.585000e+002, 4.605700e+004
1.586000e+002, 4.608900e+004
1.587000e+002, 4.634500e+004
1.588000e+002, 4.627900e+004
1.589000e+002, 4.593700e+004
1.590000e+002, 4.608100e+004
1.591000e+002, 4.628900e+004
1.592000e+002, 4.606000e+004
1.593000e+002, 4.603400e+004
1.594000e+002, 4.549700e+004
1.595000e+002, 4.548000e+004
1.596000e+002, 4.589300e+004
1.597000e+002, 4.542300e+004
1.598000e+002, 4.546700e+004
1.599000e+002, 4.566500e+004
1.600000e+002, 4.500000e+004
1.601000e+002, 4.521300e+004
1.602000e+002, 4.528200e+004
1.603000e+002, 4.538500e+004
1.604000e+002, 4.496000e+004
1.605000e+002, 4.535400e+004
1.606000e+002, 4.563800e+004
1.607000e+002, 4.506100e+004
1.608000e+002, 4.464700e+004
1.609000e+002, 4.522100e+004
1.610000e+002, 4.527400e+004
1.611000e+002, 4.507900e+004
1.612000e+002, 4.515200e+004
1.613000e+002, 4.513600e+004
1.614000e+002, 4.500800e+004
1.615000e+002, 4.493000e+004
1.616000e+002, 4.496100e+004
1.617000e+002, 4.518900e+004
1.618000e+002, 4.454600e+004
1.619000e+002, 4.482300e+004
1.620000e+002, 4.479300e+004
1.621000e+002, 4.477400e+004
1.622000e+002, 4.447000e+004
1.623000e+002, 4.421400e+004
1.624000e+002, 4.421800e+004
1.625000e+002, 4.419100e+004
1.626000e+002, 4.450000e+004
1.627000e+002, 4.388200e+004
1.628000e+002, 4.377300e+004
1.629000e+002, 4.411700e+004
1.630000e+002, 4.398600e+004
1.631000e+002, 4.393600e+004
1.632000e+002, 4.353800e+004
1.633000e+002, 4.385700e+004
1.634000e+002, 4.364400e+004
1.635000e+002, 4.321900e+004
1.636000e+002, 4.298300e+004
1.637000e+002, 4.290000e+004
1.638000e+002, 4.260000e+004
1.639000e+002, 4.289800e+004
1.640000e+002, 4.284800e+004
1.641000e+002, 4.284300e+004
1.642000e+002, 4.293300e+004
1.643000e+002, 4.261500e+004
1.644000e+002, 4.242900e+004
1.645000e+002, 4.246300e+004
1.646000e+002, 4.240800e+004
1.647000e+002, 4.206900e+004
1.648000e+002, 4.219800e+004
1.649000e+002, 4.227000e+004
1.650000e+002, 4.191900e+004
1.651000e+002, 4.152700e+004
1.652000e+002, 4.172100e+004
1.653000e+002, 4.186000e+004
1.654000e+002, 4.185600e+004
1.655000e+002, 4.182800e+004
1.656000e+002, 4.139600e+004
1.657000e+002, 4.127600e+004
1.658000e+002, 4.129700e+004
1.659000e+002, 4.102600e+004
1.660000e+002, 4.121000e+004
1.661000e+002, 4.107400e+004
1.662000e+002, 4.106300e+004
1.663000e+002, 4.103700e+004
1.664000e+002, 4.075400e+004
1.665000e+002, 4.090500e+004
1.666000e+002, 4.084500e+004
1.667000e+002, 4.106700e+004
1.668000e+002, 4.059900e+004
1.669000e+002, 4.068200e+004
1.670000e+002, 4.066600e+004
1.671000e+002, 4.068700e+004
1.672000e+002, 4.047400e+004
1.673000e+002, 4.031000e+004
1.674000e+002, 4.002000e+004
1.675000e+002, 4.002100e+004
1.676000e+002, 3.991000e+004
1.677000e+002, 4.010000e+004
1.678000e+002, 4.000100e+004
1.679000e+002, 4.006800e+004
1.680000e+002, 3.971000e+004
1.681000e+002, 3.979000e+004
1.682000e+002, 3.978400e+004
1.683000e+002, 3.969600e+004
1.684000e+002, 3.969000e+004
1.685000e+002, 3.951700e+004
1.686000e+002, 3.939400e+004
1.687000e+002, 3.934200e+004
1.688000e+002, 3.930100e+004
1.689000e+002, 3.956800e+004
1.690000e+002, 3.929600e+004
1.691000e+002, 3.910500e+004
1.692000e+002, 3.934500e+004
1.693000e+002, 3.898800e+004
1.694000e+002, 3.854700e+004
1.695000e+002, 3.868900e+004
1.696000e+002, 3.874600e+004
1.697000e+002, 3.882200e+004
1.698000e+002, 3.845500e+004
1.699000e+002, 3.845600e+004
1.700000e+002, 3.833500e+004
1.701000e+002, 3.819900e+004
1.702000e+002, 3.842300e+004
1.703000e+002, 3.790400e+004
1.704000e+002, 3.781200e+004
1.705000e+002, 3.749100e+004
1.706000e+002, 3.771800e+004
1.707000e+002, 3.764600e+004
1.708000e+002, 3.774100e+004
1.709000e+002, 3.765200e+004
1.710000e+002, 3.783300e+004
1.711000e+002, 3.751400e+004
1.712000e+002, 3.719500e+004
1.713000e+002, 3.750000e+004
1.714000e+002, 3.687700e+004
1.715000e+002, 3.736900e+004
1.716000e+002, 3.701100e+004
1.717000e+002, 3.698500e+004
1.718000e+002, 3.685500e+004
1.719000e+002, 3.656600e+004
1.720000e+002, 3.675000e+004
1.721000e+002, 3.680900e+004
1.722000e+002, 3.652400e+004
1.723000e+002, 3.608700e+004
1.724000e+002, 3.630400e+004
1.725000e+002, 3.644100e+004
1.726000e+002, 3.653000e+004
1.727000e+002, 3.656900e+004
1.728000e+002, 3.601400e+004
1.729000e+002, 3.592100e+004
1.730000e+002, 3.586100e+004
1.731000e+002, 3.604900e+004
1.732000e+002, 3.576700e+004
1.733000e+002, 3.617200e+004
1.734000e+002, 3.570200e+004
1.735000e+002, 3.562300e+004
1.736000e+002, 3.563600e+004
1.737000e+002, 3.591100e+004
1.738000e+002, 3.564400e+004
1.739000e+002, 3.527000e+004
1.740000e+002, 3.546600e+004
1.741000e+002, 3.522100e+004
1.742000e+002, 3.500600e+004
1.743000e+002, 3.501400e+004
1.744000e+002, 3.500800e+004
1.745000e+002, 3.482800e+004
1.746000e+002, 3.481000e+004
1.747000e+002, 3.462800e+004
1.748000e+002, 3.471900e+004
1.749000e+002, 3.480600e+004
1.750000e+002, 3.462000e+004
1.751000e+002, 3.441200e+004
1.752000e+002, 3.427800e+004
1.753000e+002, 3.451300e+004
1.754000e+002, 3.440300e+004
1.755000e+002, 3.422000e+004
1.756000e+002, 3.404000e+004
1.757000e+002, 3.413100e+004
1.758000e+002, 3.366100e+004
1.759000e+002, 3.352100e+004
1.760000e+002, 3.356300e+004
1.761000e+002, 3.355700e+004
1.762000e+002, 3.345000e+004
1.763000e+002, 3.346700e+004
1.764000e+002, 3.322500e+004
1.765000e+002, 3.325500e+004
1.766000e+002, 3.314300e+004
1.767000e+002, 3.313300e+004
1.768000e+002, 3.326000e+004
1.769000e+002, 3.315300e+004
1.770000e+002, 3.311500e+004
1.771000e+002, 3.306400e+004
1.772000e+002, 3.277700e+004
1.773000e+002, 3.274900e+004
1.774000e+002, 3.276600e+004
1.775000e+002, 3.260600e+004
1.776000e+002, 3.254400e+004
1.777000e+002, 3.259900e+004
1.778000e+002, 3.281800e+004
1.779000e+002, 3.229500e+004
1.780000e+002, 3.223300e+004
1.781000e+002, 3.242100e+004
1.782000e+002, 3.238500e+004
1.783000e+002, 3.226800e+004
1.784000e+002, 3.256800e+004
1.785000e+002, 3.227800e+004
1.786000e+002, 3.189600e+004
1.787000e+002, 3.234500e+004
1.788000e+002, 3.228100e+004
1.789000e+002, 3.200800e+004
1.790000e+002, 3.207700e+004
1.791000e+002, 3.198000e+004
1.792000e+002, 3.173800e+004
1.793000e+002, 3.157200e+004
1.794000e+002, 3.165700e+004
1.795000e+002, 3.153600e+004
1.796000e+002, 3.149600e+004
1.797000e+002, 3.129500e+004
1.798000e+002, 3.122100e+004
1.799000e+002, 3.128700e+004
1.800000e+002, 3.117800e+004
1.801000e+002, 3.120100e+004
1.802000e+002, 3.055100e+004
1.803000e+002, 3.056400e+004
1.804000e+002, 3.059800e+004
1.805000e+002, 3.081900e+004
1.806000e+002, 3.073200e+004
1.807000e+002, 3.075200e+004
1.808000e+002, 3.080500e+004
1.809000e+002, 3.041300e+004
1.810000e+002, 3.068600e+004
1.811000e+002, 3.055700e+004
1.812000e+002, 3.058400e+004
1.813000e+002, 3.041900e+004
1.814000e+002, 3.034700e+004
1.815000e+002, 3.018000e+004
1.816000e+002, 3.032000e+004
1.817000e+002, 3.032300e+004
1.818000e+002, 3.010600e+004
1.819000e+002, 3.009800e+004
1.820000e+002, 3.002600e+004
1.821000e+002, 3.000700e+004
1.822000e+002, 2.994800e+004
1.823000e+002, 2.981800e+004
1.824000e+002, 2.986300e+004
1.825000e+002, 2.970900e+004
1.826000e+002, 2.976700e+004
1.827000e+002, 2.985100e+004
1.828000e+002, 2.964300e+004
1.829000e+002, 2.984200e+004
1.830000e+002, 2.977200e+004
1.831000e+002, 2.949300e+004
1.832000e+002, 2.927100e+004
1.833000e+002, 2.939400e+004
1.834000e+002, 2.924900e+004
1.835000e+002, 2.901900e+004
1.836000e+002, 2.922700e+004
1.837000e+002, 2.901000e+004
1.838000e+002, 2.891100e+004
1.839000e+002, 2.937500e+004
1.840000e+002, 2.907600e+004
1.841000e+002, 2.904700e+004
1.842000e+002, 2.889200e+004
1.843000e+002, 2.915900e+004
1.844000e+002, 2.914400e+004
1.845000e+002, 2.877000e+004
1.846000e+002, 2.897600e+004
1.847000e+002, 2.890000e+004
1.848000e+002, 2.879900e+004
1.849000e+002, 2.893700e+004
1.850000e+002, 2.907200e+004
1.851000e+002, 2.922600e+004
1.852000e+002, 2.872700e+004
1.853000e+002, 2.848200e+004
1.854000e+002, 2.865600e+004
1.855000e+002, 2.837700e+004
1.856000e+002, 2.845500e+004
1.857000e+002, 2.853400e+004
1.858000e+002, 2.878700e+004
1.859000e+002, 2.864000e+004
1.860000e+002, 2.870000e+004
1.861000e+002, 2.848000e+004
1.862000e+002, 2.854300e+004
1.863000e+002, 2.849500e+004
1.864000e+002, 2.852100e+004
1.865000e+002, 2.847700e+004
1.866000e+002, 2.852000e+004
1.867000e+002, 2.826700e+004
1.868000e+002, 2.818100e+004
1.869000e+002, 2.844900e+004
1.870000e+002, 2.817400e+004
1.871000e+002, 2.821200e+004
1.872000e+002, 2.831700e+004
1.873000e+002, 2.806000e+004
1.874000e+002, 2.791400e+004
1.875000e+002, 2.815400e+004
1.876000e+002, 2.789200e+004
1.877000e+002, 2.812100e+004
1.878000e+002, 2.813900e+004
1.879000e+002, 2.814200e+004
1.880000e+002, 2.825800e+004
1.881000e+002, 2.801300e+004
1.882000e+002, 2.788900e+004
1.883000e+002, 2.801700e+004
1.884000e+002, 2.806600e+004
1.885000e+002, 2.791200e+004
1.886000e+002, 2.792200e+004
1.887000e+002, 2.795700e+004
1.888000e+002, 2.765100e+004
1.889000e+002, 2.790100e+004
1.890000e+002, 2.781400e+004
1.891000e+002, 2.769400e+004
#ENDOFDATA   : End Of Data and File
